Messreihe Frequenzsweep Ladestrom Akku: AC ist Effektivwert
Frequenz Start/Stopp/Delta: 0.01/10000.0/0.01 Hz, Sin-Min: 10 mA, Sin-Max: 30 mA

f [Hz]; U_DC [v]; I_DC [mA]; U_AC [v]; I_AC [mA]; R_Diff [Ohm]; Phi [deg]; Phi [rad] 

0.010;1.435;19.9674;0.0159;6.9062;2.309;-28.1211;-0.49081
0.012;1.443;19.9738;0.0169;6.9045;2.447;-7.1706;-0.12515
0.014;1.446;19.9727;0.0167;6.9074;2.416;-6.8111;-0.11888
0.017;1.447;19.9742;0.0165;6.9001;2.391;-6.3329;-0.11053
0.021;1.448;19.9683;0.0163;6.8915;2.372;-6.4620;-0.11278
0.025;1.449;19.9726;0.0162;6.9087;2.346;-5.8911;-0.10282
0.030;1.450;19.9768;0.0161;6.9080;2.327;-5.9911;-0.10457
0.036;1.450;19.9763;0.0160;6.9041;2.311;-6.0542;-0.10567
0.043;1.450;19.9755;0.0159;6.9067;2.295;-5.8763;-0.10256
0.052;1.451;19.9738;0.0158;6.9163;2.278;-5.6841;-0.09921
0.062;1.451;19.9758;0.0157;6.9088;2.267;-5.3158;-0.09278
0.074;1.451;19.9760;0.0156;6.9081;2.252;-5.2622;-0.09184
0.089;1.451;19.9785;0.0155;6.9120;2.241;-4.9931;-0.08715
0.107;1.451;19.9753;0.0154;6.9084;2.225;-5.2773;-0.09211
0.128;1.451;19.9852;0.0153;6.9064;2.211;-5.4156;-0.09452
0.154;1.452;19.9712;0.0152;6.9013;2.199;-5.6145;-0.09799
0.185;1.452;19.9789;0.0151;6.9140;2.181;-6.1491;-0.10732
0.222;1.452;19.9855;0.0150;6.9079;2.171;-6.2139;-0.10845
0.266;1.452;19.9676;0.0149;6.9129;2.153;-6.3988;-0.11168
0.319;1.452;19.9661;0.0147;6.9123;2.133;-6.8043;-0.11876
0.383;1.452;19.9863;0.0146;6.9054;2.111;-7.5758;-0.13222
0.460;1.452;19.9834;0.0143;6.9077;2.077;-8.4904;-0.14819
0.552;1.452;19.9812;0.0140;6.9105;2.032;-9.6163;-0.16784
0.662;1.452;19.9664;0.0137;6.8920;1.992;-10.3287;-0.18027
0.795;1.452;19.9637;0.0135;6.9030;1.950;-10.5945;-0.18491
0.954;1.452;19.9782;0.0132;6.9104;1.904;-11.3465;-0.19803
1.145;1.452;19.9808;0.0128;6.8962;1.850;-12.4688;-0.21762
1.374;1.452;19.9772;0.0124;6.9051;1.801;-12.3870;-0.21619
1.648;1.452;19.9707;0.0120;6.8996;1.745;-13.4986;-0.23559
1.978;1.452;19.9818;0.0117;6.9076;1.692;-13.4061;-0.23398
2.374;1.452;19.9835;0.0114;6.9124;1.642;-13.7992;-0.24084
2.849;1.452;19.9683;0.0110;6.9008;1.590;-13.8727;-0.24212
3.418;1.452;19.9776;0.0106;6.9139;1.540;-14.2684;-0.24903
4.102;1.452;19.9895;0.0103;6.9092;1.490;-14.0760;-0.24567
4.922;1.452;19.9802;0.0100;6.9096;1.447;-13.9668;-0.24377
5.907;1.452;19.9947;0.0097;6.9089;1.401;-14.3388;-0.25026
7.088;1.452;19.9761;0.0094;6.9067;1.359;-13.7143;-0.23936
8.506;1.452;20.0036;0.0091;6.9079;1.322;-13.7744;-0.24041
10.207;1.452;19.9777;0.0089;6.9109;1.281;-13.6277;-0.23785
12.248;1.452;20.0399;0.0086;6.8959;1.243;-13.1813;-0.23006
14.698;1.452;19.9699;0.0083;6.8947;1.210;-13.7701;-0.24033
17.637;1.452;19.9899;0.0081;6.8936;1.174;-12.7279;-0.22214
21.165;1.452;19.9969;0.0079;6.9152;1.145;-12.7946;-0.22331
25.398;1.452;20.0156;0.0077;6.9160;1.113;-12.4374;-0.21707
30.477;1.452;19.9383;0.0075;6.9078;1.083;-12.2964;-0.21461
36.573;1.452;20.0082;0.0073;6.8977;1.061;-12.0231;-0.20984
43.887;1.452;20.0248;0.0071;6.9032;1.030;-11.4153;-0.19923
52.665;1.452;19.9323;0.0070;6.8843;1.012;-11.0242;-0.19241
63.197;1.452;19.9811;0.0068;6.9266;0.988;-10.4719;-0.18277
75.837;1.452;19.9559;0.0067;6.9167;0.968;-10.3110;-0.17996
91.004;1.452;19.9716;0.0066;6.9306;0.950;-9.9748;-0.17409
109.205;1.452;19.9089;0.0064;6.8767;0.934;-9.7425;-0.17004
131.046;1.452;19.9719;0.0063;6.9119;0.914;-8.9883;-0.15688
157.256;1.452;19.9642;0.0062;6.8907;0.902;-8.7443;-0.15262
188.707;1.452;19.9759;0.0061;6.9002;0.887;-9.0128;-0.15730
226.448;1.452;19.9419;0.0060;6.8952;0.873;-8.3406;-0.14557
271.738;1.452;20.0219;0.0059;6.8761;0.859;-7.9569;-0.13887
326.085;1.452;19.9549;0.0058;6.8919;0.847;-7.8313;-0.13668
391.302;1.452;19.9596;0.0058;6.9046;0.834;-8.1299;-0.14189
469.563;1.452;19.9304;0.0057;6.8856;0.826;-8.0209;-0.13999
563.475;1.452;19.9712;0.0056;6.9068;0.813;-7.8326;-0.13670
676.170;1.452;19.9689;0.0056;6.9016;0.804;-7.6661;-0.13380
811.404;1.452;19.9662;0.0055;6.8943;0.795;-7.8592;-0.13717
973.685;1.452;19.9719;0.0054;6.8945;0.787;-7.8683;-0.13733
1168.422;1.452;19.9746;0.0054;6.8902;0.777;-8.0209;-0.13999
1402.106;1.452;19.9823;0.0053;6.8886;0.766;-8.4802;-0.14801
1682.528;1.452;19.9754;0.0052;6.8759;0.758;-8.6473;-0.15092
2019.033;1.452;19.9704;0.0052;6.8790;0.749;-9.4992;-0.16579
2422.840;1.452;19.9810;0.0051;6.8535;0.744;-10.3196;-0.18011
2907.408;1.452;19.9890;0.0050;6.8304;0.736;-11.1475;-0.19456
3488.890;1.452;19.9748;0.0050;6.7986;0.732;-11.1605;-0.19479
4186.667;1.452;19.9578;0.0049;6.7592;0.724;-13.5040;-0.23569
5024.001;1.452;19.9768;0.0048;6.6886;0.719;-13.5868;-0.23713
6028.801;1.453;19.9789;0.0047;6.6317;0.713;-15.7034;-0.27408
7234.561;1.453;19.9927;0.0046;6.5203;0.713;-16.7499;-0.29234
8681.474;1.453;20.0153;0.0046;6.4176;0.709;-19.4477;-0.33943
